sbj; age; sex; block; phase; trialnr; sound; press order; accumulated RT; press duration; key name
Natalija 2; 22; ženski; ritem; vaja; 1; R_exampleI_520260520260520130130520_tapping.wav; 1; 0; 121; space
Natalija 2; 22; ženski; ritem; vaja; 1; R_exampleI_520260520260520130130520_tapping.wav; 2; 497; 67; space
Natalija 2; 22; ženski; ritem; vaja; 1; R_exampleI_520260520260520130130520_tapping.wav; 3; 717; 73; space
Natalija 2; 22; ženski; ritem; vaja; 1; R_exampleI_520260520260520130130520_tapping.wav; 4; 1190; 34; space
Natalija 2; 22; ženski; ritem; vaja; 1; R_exampleI_520260520260520130130520_tapping.wav; 5; 1317; 54; space
Natalija 2; 22; ženski; ritem; vaja; 1; R_exampleI_520260520260520130130520_tapping.wav; 6; 1456; 42; space
Natalija 2; 22; ženski; ritem; vaja; 1; R_exampleI_520260520260520130130520_tapping.wav; 7; 1996; 79; space
Natalija 2; 22; ženski; ritem; vaja; 1; R_exampleI_520260520260520130130520_tapping.wav; 8; 2231; 60; space
Natalija 2; 22; ženski; ritem; vaja; 1; R_exampleI_520260520260520130130520_tapping.wav; 9; 2781; 106; space
Natalija 2; 22; ženski; ritem; vaja; 1; R_exampleI_520260520260520130130520_tapping.wav; 10; 3580; 109; return
Natalija 2; 22; ženski; ritem; eksperiment; 1; R_ES1_tapping.wav; 1; 0; 88; space
Natalija 2; 22; ženski; ritem; eksperiment; 1; R_ES1_tapping.wav; 2; 240; 87; space
Natalija 2; 22; ženski; ritem; eksperiment; 1; R_ES1_tapping.wav; 3; 492; 95; space
Natalija 2; 22; ženski; ritem; eksperiment; 1; R_ES1_tapping.wav; 4; 1043; 89; space
Natalija 2; 22; ženski; ritem; eksperiment; 1; R_ES1_tapping.wav; 5; 1308; 59; space
Natalija 2; 22; ženski; ritem; eksperiment; 1; R_ES1_tapping.wav; 6; 1553; 72; space
Natalija 2; 22; ženski; ritem; eksperiment; 1; R_ES1_tapping.wav; 7; 2113; 80; space
Natalija 2; 22; ženski; ritem; eksperiment; 1; R_ES1_tapping.wav; 8; 2659; 114; space
Natalija 2; 22; ženski; ritem; eksperiment; 1; R_ES1_tapping.wav; 9; 3599; 85; return
Natalija 2; 22; ženski; ritem; eksperiment; 2; R_M1_tapping.wav; 1; 0; 113; space
Natalija 2; 22; ženski; ritem; eksperiment; 2; R_M1_tapping.wav; 2; 373; 60; space
Natalija 2; 22; ženski; ritem; eksperiment; 2; R_M1_tapping.wav; 3; 501; 85; space
Natalija 2; 22; ženski; ritem; eksperiment; 2; R_M1_tapping.wav; 4; 899; 72; space
Natalija 2; 22; ženski; ritem; eksperiment; 2; R_M1_tapping.wav; 5; 1058; 62; space
Natalija 2; 22; ženski; ritem; eksperiment; 2; R_M1_tapping.wav; 6; 1266; 58; space
Natalija 2; 22; ženski; ritem; eksperiment; 2; R_M1_tapping.wav; 7; 1887; 68; space
Natalija 2; 22; ženski; ritem; eksperiment; 2; R_M1_tapping.wav; 8; 2036; 84; space
Natalija 2; 22; ženski; ritem; eksperiment; 2; R_M1_tapping.wav; 9; 2403; 46; space
Natalija 2; 22; ženski; ritem; eksperiment; 2; R_M1_tapping.wav; 10; 2530; 77; space
Natalija 2; 22; ženski; ritem; eksperiment; 2; R_M1_tapping.wav; 11; 3290; 85; return
Natalija 2; 22; ženski; ritem; eksperiment; 3; R_C_tapping.wav; 1; 0; 80; space
Natalija 2; 22; ženski; ritem; eksperiment; 3; R_C_tapping.wav; 2; 410; 42; space
Natalija 2; 22; ženski; ritem; eksperiment; 3; R_C_tapping.wav; 3; 552; 62; space
Natalija 2; 22; ženski; ritem; eksperiment; 3; R_C_tapping.wav; 4; 924; 47; space
Natalija 2; 22; ženski; ritem; eksperiment; 3; R_C_tapping.wav; 5; 1081; 47; space
Natalija 2; 22; ženski; ritem; eksperiment; 3; R_C_tapping.wav; 6; 1340; 86; space
Natalija 2; 22; ženski; ritem; eksperiment; 3; R_C_tapping.wav; 7; 1576; 90; space
Natalija 2; 22; ženski; ritem; eksperiment; 3; R_C_tapping.wav; 8; 2179; 54; space
Natalija 2; 22; ženski; ritem; eksperiment; 3; R_C_tapping.wav; 9; 2345; 26; space
Natalija 2; 22; ženski; ritem; eksperiment; 3; R_C_tapping.wav; 10; 2628; 45; space
Natalija 2; 22; ženski; ritem; eksperiment; 3; R_C_tapping.wav; 11; 2772; 68; space
Natalija 2; 22; ženski; ritem; eksperiment; 3; R_C_tapping.wav; 12; 3473; NA; return
Natalija 2; 22; ženski; tempo; vaja; 1; TE_exampleI_129bpm_tapping.wav; 1; 0; 133; space
Natalija 2; 22; ženski; tempo; vaja; 1; TE_exampleI_129bpm_tapping.wav; 2; 432; 157; space
Natalija 2; 22; ženski; tempo; vaja; 1; TE_exampleI_129bpm_tapping.wav; 3; 910; 135; space
Natalija 2; 22; ženski; tempo; vaja; 1; TE_exampleI_129bpm_tapping.wav; 4; 1331; 141; space
Natalija 2; 22; ženski; tempo; vaja; 1; TE_exampleI_129bpm_tapping.wav; 5; 1768; 152; space
Natalija 2; 22; ženski; tempo; vaja; 1; TE_exampleI_129bpm_tapping.wav; 6; 2227; 114; space
Natalija 2; 22; ženski; tempo; vaja; 1; TE_exampleI_129bpm_tapping.wav; 7; 2645; 135; space
Natalija 2; 22; ženski; tempo; vaja; 1; TE_exampleI_129bpm_tapping.wav; 8; 3119; 114; space
Natalija 2; 22; ženski; tempo; vaja; 1; TE_exampleI_129bpm_tapping.wav; 9; 3855; 123; return
Natalija 2; 22; ženski; tempo; eksperiment; 1; TE_ES1_tapping.wav; 1; 0; 110; space
Natalija 2; 22; ženski; tempo; eksperiment; 1; TE_ES1_tapping.wav; 2; 437; 92; space
Natalija 2; 22; ženski; tempo; eksperiment; 1; TE_ES1_tapping.wav; 3; 832; 102; space
Natalija 2; 22; ženski; tempo; eksperiment; 1; TE_ES1_tapping.wav; 4; 1300; 106; space
Natalija 2; 22; ženski; tempo; eksperiment; 1; TE_ES1_tapping.wav; 5; 1784; 96; space
Natalija 2; 22; ženski; tempo; eksperiment; 1; TE_ES1_tapping.wav; 6; 2241; 88; space
Natalija 2; 22; ženski; tempo; eksperiment; 1; TE_ES1_tapping.wav; 7; 2672; 105; space
Natalija 2; 22; ženski; tempo; eksperiment; 1; TE_ES1_tapping.wav; 8; 3122; 76; space
Natalija 2; 22; ženski; tempo; eksperiment; 1; TE_ES1_tapping.wav; 9; 3707; NA; return
Natalija 2; 22; ženski; tempo; eksperiment; 2; TE_MS2_tapping.wav; 1; 0; 123; space
Natalija 2; 22; ženski; tempo; eksperiment; 2; TE_MS2_tapping.wav; 2; 635; 136; space
Natalija 2; 22; ženski; tempo; eksperiment; 2; TE_MS2_tapping.wav; 3; 1219; 139; space
Natalija 2; 22; ženski; tempo; eksperiment; 2; TE_MS2_tapping.wav; 4; 1768; 106; space
Natalija 2; 22; ženski; tempo; eksperiment; 2; TE_MS2_tapping.wav; 5; 2336; 118; space
Natalija 2; 22; ženski; tempo; eksperiment; 2; TE_MS2_tapping.wav; 6; 2897; 135; space
Natalija 2; 22; ženski; tempo; eksperiment; 2; TE_MS2_tapping.wav; 7; 3469; 135; space
Natalija 2; 22; ženski; tempo; eksperiment; 2; TE_MS2_tapping.wav; 8; 4054; 118; space
Natalija 2; 22; ženski; tempo; eksperiment; 2; TE_MS2_tapping.wav; 9; 4758; 101; return
Natalija 2; 22; ženski; tempo; eksperiment; 3; TE_CS2_tapping.wav; 1; 0; 132; space
Natalija 2; 22; ženski; tempo; eksperiment; 3; TE_CS2_tapping.wav; 2; 545; 140; space
Natalija 2; 22; ženski; tempo; eksperiment; 3; TE_CS2_tapping.wav; 3; 1119; 139; space
Natalija 2; 22; ženski; tempo; eksperiment; 3; TE_CS2_tapping.wav; 4; 1713; 130; space
Natalija 2; 22; ženski; tempo; eksperiment; 3; TE_CS2_tapping.wav; 5; 2272; 114; space
Natalija 2; 22; ženski; tempo; eksperiment; 3; TE_CS2_tapping.wav; 6; 2770; 96; space
Natalija 2; 22; ženski; tempo; eksperiment; 3; TE_CS2_tapping.wav; 7; 3382; 114; space
Natalija 2; 22; ženski; tempo; eksperiment; 3; TE_CS2_tapping.wav; 8; 3975; 92; space
Natalija 2; 22; ženski; tempo; eksperiment; 3; TE_CS2_tapping.wav; 9; 4617; 73; return
