sbj; age; sex; block; phase; trialnr; sound; press order; accumulated RT; press duration; key name
2323; 22; ženski; ritem; vaja; 1; R_exampleI_520260520260520130130520_tapping.wav; 1; 0; 83; space
2323; 22; ženski; ritem; vaja; 1; R_exampleI_520260520260520130130520_tapping.wav; 2; 534; 80; space
2323; 22; ženski; ritem; vaja; 1; R_exampleI_520260520260520130130520_tapping.wav; 3; 811; 76; space
2323; 22; ženski; ritem; vaja; 1; R_exampleI_520260520260520130130520_tapping.wav; 4; 1350; 76; space
2323; 22; ženski; ritem; vaja; 1; R_exampleI_520260520260520130130520_tapping.wav; 5; 1645; 60; space
2323; 22; ženski; ritem; vaja; 1; R_exampleI_520260520260520130130520_tapping.wav; 6; 2146; 68; space
2323; 22; ženski; ritem; vaja; 1; R_exampleI_520260520260520130130520_tapping.wav; 7; 2343; 52; space
2323; 22; ženski; ritem; vaja; 1; R_exampleI_520260520260520130130520_tapping.wav; 8; 2498; 128; space
2323; 22; ženski; ritem; vaja; 1; R_exampleI_520260520260520130130520_tapping.wav; 9; 3112; 132; space
2323; 22; ženski; ritem; vaja; 1; R_exampleI_520260520260520130130520_tapping.wav; 10; 4047; NA; return
2323; 22; ženski; ritem; vaja; 2; R_exampleII_260520650130520260260260520_tapping.wav; 1; 0; 59; space
2323; 22; ženski; ritem; vaja; 2; R_exampleII_260520650130520260260260520_tapping.wav; 2; 264; 72; space
2323; 22; ženski; ritem; vaja; 2; R_exampleII_260520650130520260260260520_tapping.wav; 3; 763; 72; space
2323; 22; ženski; ritem; vaja; 2; R_exampleII_260520650130520260260260520_tapping.wav; 4; 1032; 84; space
2323; 22; ženski; ritem; vaja; 2; R_exampleII_260520650130520260260260520_tapping.wav; 5; 1562; 72; space
2323; 22; ženski; ritem; vaja; 2; R_exampleII_260520650130520260260260520_tapping.wav; 6; 1799; 60; space
2323; 22; ženski; ritem; vaja; 2; R_exampleII_260520650130520260260260520_tapping.wav; 7; 2290; 64; space
2323; 22; ženski; ritem; vaja; 2; R_exampleII_260520650130520260260260520_tapping.wav; 8; 2552; 64; space
2323; 22; ženski; ritem; vaja; 2; R_exampleII_260520650130520260260260520_tapping.wav; 9; 2983; 56; space
2323; 22; ženski; ritem; vaja; 2; R_exampleII_260520650130520260260260520_tapping.wav; 10; 3141; 52; space
2323; 22; ženski; ritem; vaja; 2; R_exampleII_260520650130520260260260520_tapping.wav; 11; 3285; 52; space
2323; 22; ženski; ritem; vaja; 2; R_exampleII_260520650130520260260260520_tapping.wav; 12; 3742; 72; space
2323; 22; ženski; ritem; vaja; 2; R_exampleII_260520650130520260260260520_tapping.wav; 13; 5306; 64; return
2323; 22; ženski; ritem; vaja; 3; R_exampleIII_520650650520130390130520_tapping.wav; 1; 0; 143; space
2323; 22; ženski; ritem; vaja; 3; R_exampleIII_520650650520130390130520_tapping.wav; 2; 643; 124; space
2323; 22; ženski; ritem; vaja; 3; R_exampleIII_520650650520130390130520_tapping.wav; 3; 1290; 112; space
2323; 22; ženski; ritem; vaja; 3; R_exampleIII_520650650520130390130520_tapping.wav; 4; 1962; 140; space
2323; 22; ženski; ritem; vaja; 3; R_exampleIII_520650650520130390130520_tapping.wav; 5; 2667; 64; space
2323; 22; ženski; ritem; vaja; 3; R_exampleIII_520650650520130390130520_tapping.wav; 6; 2808; 88; space
2323; 22; ženski; ritem; vaja; 3; R_exampleIII_520650650520130390130520_tapping.wav; 7; 3445; 124; space
2323; 22; ženski; ritem; vaja; 3; R_exampleIII_520650650520130390130520_tapping.wav; 8; 4972; 76; return
2323; 22; ženski; ritem; eksperiment; 1; R1_easy_tapping.wav; 1; 0; 87; space
2323; 22; ženski; ritem; eksperiment; 1; R1_easy_tapping.wav; 2; 493; 72; space
2323; 22; ženski; ritem; eksperiment; 1; R1_easy_tapping.wav; 3; 710; 76; space
2323; 22; ženski; ritem; eksperiment; 1; R1_easy_tapping.wav; 4; 965; 92; space
2323; 22; ženski; ritem; eksperiment; 1; R1_easy_tapping.wav; 5; 1450; 88; space
2323; 22; ženski; ritem; eksperiment; 1; R1_easy_tapping.wav; 6; 1685; 72; space
2323; 22; ženski; ritem; eksperiment; 1; R1_easy_tapping.wav; 7; 1949; 120; space
2323; 22; ženski; ritem; eksperiment; 1; R1_easy_tapping.wav; 8; 2479; 120; space
2323; 22; ženski; ritem; eksperiment; 1; R1_easy_tapping.wav; 9; 3006; 140; space
2323; 22; ženski; ritem; eksperiment; 1; R1_easy_tapping.wav; 10; 5547; 64; return
2323; 22; ženski; ritem; eksperiment; 2; R2_easy_tapping.wav; 1; 0; 71; space
2323; 22; ženski; ritem; eksperiment; 2; R2_easy_tapping.wav; 2; 201; 60; space
2323; 22; ženski; ritem; eksperiment; 2; R2_easy_tapping.wav; 3; 448; 80; space
2323; 22; ženski; ritem; eksperiment; 2; R2_easy_tapping.wav; 4; 969; 64; space
2323; 22; ženski; ritem; eksperiment; 2; R2_easy_tapping.wav; 5; 1222; 72; space
2323; 22; ženski; ritem; eksperiment; 2; R2_easy_tapping.wav; 6; 1490; 132; space
2323; 22; ženski; ritem; eksperiment; 2; R2_easy_tapping.wav; 7; 1962; 88; space
2323; 22; ženski; ritem; eksperiment; 2; R2_easy_tapping.wav; 8; 2480; 96; space
2323; 22; ženski; ritem; eksperiment; 2; R2_easy_tapping.wav; 9; 3909; 76; space
2323; 22; ženski; ritem; eksperiment; 2; R2_easy_tapping.wav; 10; 4151; 48; space
2323; 22; ženski; ritem; eksperiment; 2; R2_easy_tapping.wav; 11; 4370; 92; space
2323; 22; ženski; ritem; eksperiment; 2; R2_easy_tapping.wav; 12; 4901; 60; space
2323; 22; ženski; ritem; eksperiment; 2; R2_easy_tapping.wav; 13; 5148; 72; space
2323; 22; ženski; ritem; eksperiment; 2; R2_easy_tapping.wav; 14; 5404; 100; space
2323; 22; ženski; ritem; eksperiment; 2; R2_easy_tapping.wav; 15; 5920; 100; space
2323; 22; ženski; ritem; eksperiment; 2; R2_easy_tapping.wav; 16; 6436; 120; space
2323; 22; ženski; ritem; eksperiment; 2; R2_easy_tapping.wav; 17; 8039; 80; return
2323; 22; ženski; ritem; eksperiment; 3; R3_medium_tapping.wav; 1; 0; 83; space
2323; 22; ženski; ritem; eksperiment; 3; R3_medium_tapping.wav; 2; 396; 56; space
2323; 22; ženski; ritem; eksperiment; 3; R3_medium_tapping.wav; 3; 548; 68; space
2323; 22; ženski; ritem; eksperiment; 3; R3_medium_tapping.wav; 4; 909; 68; space
2323; 22; ženski; ritem; eksperiment; 3; R3_medium_tapping.wav; 5; 1071; 60; space
2323; 22; ženski; ritem; eksperiment; 3; R3_medium_tapping.wav; 6; 1425; 52; space
2323; 22; ženski; ritem; eksperiment; 3; R3_medium_tapping.wav; 7; 1581; 56; space
2323; 22; ženski; ritem; eksperiment; 3; R3_medium_tapping.wav; 8; 1987; 68; space
2323; 22; ženski; ritem; eksperiment; 3; R3_medium_tapping.wav; 9; 2159; 52; space
2323; 22; ženski; ritem; eksperiment; 3; R3_medium_tapping.wav; 10; 2701; 60; space
2323; 22; ženski; ritem; eksperiment; 3; R3_medium_tapping.wav; 11; 4326; 80; space
2323; 22; ženski; ritem; eksperiment; 3; R3_medium_tapping.wav; 12; 4701; 60; space
2323; 22; ženski; ritem; eksperiment; 3; R3_medium_tapping.wav; 13; 4875; 48; space
2323; 22; ženski; ritem; eksperiment; 3; R3_medium_tapping.wav; 14; 5266; 56; space
2323; 22; ženski; ritem; eksperiment; 3; R3_medium_tapping.wav; 15; 5440; 36; space
2323; 22; ženski; ritem; eksperiment; 3; R3_medium_tapping.wav; 16; 5924; 56; space
2323; 22; ženski; ritem; eksperiment; 3; R3_medium_tapping.wav; 17; 6109; 56; space
2323; 22; ženski; ritem; eksperiment; 3; R3_medium_tapping.wav; 18; 6662; 48; space
2323; 22; ženski; ritem; eksperiment; 3; R3_medium_tapping.wav; 19; 7168; 60; space
2323; 22; ženski; ritem; eksperiment; 3; R3_medium_tapping.wav; 20; 8335; 68; return
2323; 22; ženski; ritem; eksperiment; 4; R4_medium_tapping.wav; 1; 0; 83; space
2323; 22; ženski; ritem; eksperiment; 4; R4_medium_tapping.wav; 2; 221; 80; space
2323; 22; ženski; ritem; eksperiment; 4; R4_medium_tapping.wav; 3; 735; 68; space
2323; 22; ženski; ritem; eksperiment; 4; R4_medium_tapping.wav; 4; 1021; 92; space
2323; 22; ženski; ritem; eksperiment; 4; R4_medium_tapping.wav; 5; 1529; 108; space
2323; 22; ženski; ritem; eksperiment; 4; R4_medium_tapping.wav; 6; 1768; 60; space
2323; 22; ženski; ritem; eksperiment; 4; R4_medium_tapping.wav; 7; 2256; 72; space
2323; 22; ženski; ritem; eksperiment; 4; R4_medium_tapping.wav; 8; 2498; 108; space
2323; 22; ženski; ritem; eksperiment; 4; R4_medium_tapping.wav; 9; 3606; 64; return
2323; 22; ženski; ritem; eksperiment; 5; R6_complex_tapping.wav; 1; 0; 75; space
2323; 22; ženski; ritem; eksperiment; 5; R6_complex_tapping.wav; 2; 307; 80; space
2323; 22; ženski; ritem; eksperiment; 5; R6_complex_tapping.wav; 3; 890; 80; space
2323; 22; ženski; ritem; eksperiment; 5; R6_complex_tapping.wav; 4; 1218; 60; space
2323; 22; ženski; ritem; eksperiment; 5; R6_complex_tapping.wav; 5; 1393; 48; space
2323; 22; ženski; ritem; eksperiment; 5; R6_complex_tapping.wav; 6; 1613; 64; space
2323; 22; ženski; ritem; eksperiment; 5; R6_complex_tapping.wav; 7; 2212; 72; space
2323; 22; ženski; ritem; eksperiment; 5; R6_complex_tapping.wav; 8; 2536; 84; space
2323; 22; ženski; ritem; eksperiment; 5; R6_complex_tapping.wav; 9; 3567; 56; return
2323; 22; ženski; ritem; eksperiment; 6; R8_complex_tapping.wav; 1; 0; 83; space
2323; 22; ženski; ritem; eksperiment; 6; R8_complex_tapping.wav; 2; 285; 48; space
2323; 22; ženski; ritem; eksperiment; 6; R8_complex_tapping.wav; 3; 427; 56; space
2323; 22; ženski; ritem; eksperiment; 6; R8_complex_tapping.wav; 4; 602; 28; space
2323; 22; ženski; ritem; eksperiment; 6; R8_complex_tapping.wav; 5; 1259; 88; space
2323; 22; ženski; ritem; eksperiment; 6; R8_complex_tapping.wav; 6; 1607; 44; space
2323; 22; ženski; ritem; eksperiment; 6; R8_complex_tapping.wav; 7; 1754; 60; space
2323; 22; ženski; ritem; eksperiment; 6; R8_complex_tapping.wav; 8; 2053; 40; space
2323; 22; ženski; ritem; eksperiment; 6; R8_complex_tapping.wav; 9; 2704; 92; space
2323; 22; ženski; ritem; eksperiment; 6; R8_complex_tapping.wav; 10; 3018; 72; space
2323; 22; ženski; ritem; eksperiment; 6; R8_complex_tapping.wav; 11; 3873; 80; return
2323; 22; ženski; tempo; vaja; 1; TE_exampleI_129bpm_tapping.wav; 1; 0; 59; space
2323; 22; ženski; tempo; vaja; 1; TE_exampleI_129bpm_tapping.wav; 2; 442; 68; space
2323; 22; ženski; tempo; vaja; 1; TE_exampleI_129bpm_tapping.wav; 3; 902; 80; space
2323; 22; ženski; tempo; vaja; 1; TE_exampleI_129bpm_tapping.wav; 4; 1382; 68; space
2323; 22; ženski; tempo; vaja; 1; TE_exampleI_129bpm_tapping.wav; 5; 1880; 76; space
2323; 22; ženski; tempo; vaja; 1; TE_exampleI_129bpm_tapping.wav; 6; 2338; 80; space
2323; 22; ženski; tempo; vaja; 1; TE_exampleI_129bpm_tapping.wav; 7; 3239; NA; return
2323; 22; ženski; tempo; vaja; 2; TE_exampleII_116bpm_tapping.wav; 1; 0; 56; space
2323; 22; ženski; tempo; vaja; 2; TE_exampleII_116bpm_tapping.wav; 2; 316; 64; space
2323; 22; ženski; tempo; vaja; 2; TE_exampleII_116bpm_tapping.wav; 3; 743; 44; space
2323; 22; ženski; tempo; vaja; 2; TE_exampleII_116bpm_tapping.wav; 4; 1030; 68; space
2323; 22; ženski; tempo; vaja; 2; TE_exampleII_116bpm_tapping.wav; 5; 2224; 52; return
2323; 22; ženski; tempo; vaja; 3; TE_exampleIII_121bpm_tapping.wav; 1; 0; 71; space
2323; 22; ženski; tempo; vaja; 3; TE_exampleIII_121bpm_tapping.wav; 2; 432; 68; space
2323; 22; ženski; tempo; vaja; 3; TE_exampleIII_121bpm_tapping.wav; 3; 918; 80; space
2323; 22; ženski; tempo; vaja; 3; TE_exampleIII_121bpm_tapping.wav; 4; 1395; 92; space
2323; 22; ženski; tempo; vaja; 3; TE_exampleIII_121bpm_tapping.wav; 5; 1899; 76; space
2323; 22; ženski; tempo; vaja; 3; TE_exampleIII_121bpm_tapping.wav; 6; 2358; 136; space
2323; 22; ženski; tempo; vaja; 3; TE_exampleIII_121bpm_tapping.wav; 7; 2851; 108; space
2323; 22; ženski; tempo; vaja; 3; TE_exampleIII_121bpm_tapping.wav; 8; 3361; 172; space
2323; 22; ženski; tempo; vaja; 3; TE_exampleIII_121bpm_tapping.wav; 9; 4779; 116; return
2323; 22; ženski; tempo; eksperiment; 1; T1_tapping.wav; 1; 0; 99; space
2323; 22; ženski; tempo; eksperiment; 1; T1_tapping.wav; 2; 552; 104; space
2323; 22; ženski; tempo; eksperiment; 1; T1_tapping.wav; 3; 1177; 80; space
2323; 22; ženski; tempo; eksperiment; 1; T1_tapping.wav; 4; 1699; 108; space
2323; 22; ženski; tempo; eksperiment; 1; T1_tapping.wav; 5; 2264; 104; space
2323; 22; ženski; tempo; eksperiment; 1; T1_tapping.wav; 6; 2821; 100; space
2323; 22; ženski; tempo; eksperiment; 1; T1_tapping.wav; 7; 3437; 80; space
2323; 22; ženski; tempo; eksperiment; 1; T1_tapping.wav; 8; 4011; 112; space
2323; 22; ženski; tempo; eksperiment; 1; T1_tapping.wav; 9; 4690; 124; return
2323; 22; ženski; tempo; eksperiment; 2; T2_tapping.wav; 1; 0; 55; space
2323; 22; ženski; tempo; eksperiment; 2; T2_tapping.wav; 2; 535; 52; space
2323; 22; ženski; tempo; eksperiment; 2; T2_tapping.wav; 3; 1051; 56; space
2323; 22; ženski; tempo; eksperiment; 2; T2_tapping.wav; 4; 1552; 60; space
2323; 22; ženski; tempo; eksperiment; 2; T2_tapping.wav; 5; 2127; 52; space
2323; 22; ženski; tempo; eksperiment; 2; T2_tapping.wav; 6; 2630; 68; space
2323; 22; ženski; tempo; eksperiment; 2; T2_tapping.wav; 7; 3117; 92; return
2323; 22; ženski; tempo; eksperiment; 3; T3_tapping.wav; 1; 0; 95; space
2323; 22; ženski; tempo; eksperiment; 3; T3_tapping.wav; 2; 509; 120; space
2323; 22; ženski; tempo; eksperiment; 3; T3_tapping.wav; 3; 1028; 112; space
2323; 22; ženski; tempo; eksperiment; 3; T3_tapping.wav; 4; 1538; 156; space
2323; 22; ženski; tempo; eksperiment; 3; T3_tapping.wav; 5; 2055; 156; space
2323; 22; ženski; tempo; eksperiment; 3; T3_tapping.wav; 6; 2613; 120; space
2323; 22; ženski; tempo; eksperiment; 3; T3_tapping.wav; 7; 3158; 124; space
2323; 22; ženski; tempo; eksperiment; 3; T3_tapping.wav; 8; 4057; 96; return
2323; 22; ženski; tempo; eksperiment; 4; T4_tapping.wav; 1; 0; 87; space
2323; 22; ženski; tempo; eksperiment; 4; T4_tapping.wav; 2; 414; 84; space
2323; 22; ženski; tempo; eksperiment; 4; T4_tapping.wav; 3; 856; 96; space
2323; 22; ženski; tempo; eksperiment; 4; T4_tapping.wav; 4; 1301; 84; space
2323; 22; ženski; tempo; eksperiment; 4; T4_tapping.wav; 5; 1800; 72; space
2323; 22; ženski; tempo; eksperiment; 4; T4_tapping.wav; 6; 2258; 88; space
2323; 22; ženski; tempo; eksperiment; 4; T4_tapping.wav; 7; 2716; 72; space
2323; 22; ženski; tempo; eksperiment; 4; T4_tapping.wav; 8; 3183; 84; space
2323; 22; ženski; tempo; eksperiment; 4; T4_tapping.wav; 9; 3645; NA; return
2323; 22; ženski; tempo; eksperiment; 5; T5_tapping.wav; 1; 0; 75; space
2323; 22; ženski; tempo; eksperiment; 5; T5_tapping.wav; 2; 520; 116; space
2323; 22; ženski; tempo; eksperiment; 5; T5_tapping.wav; 3; 1027; 128; space
2323; 22; ženski; tempo; eksperiment; 5; T5_tapping.wav; 4; 1582; 100; space
2323; 22; ženski; tempo; eksperiment; 5; T5_tapping.wav; 5; 2111; 128; space
2323; 22; ženski; tempo; eksperiment; 5; T5_tapping.wav; 6; 2629; 132; space
2323; 22; ženski; tempo; eksperiment; 5; T5_tapping.wav; 7; 3164; 128; space
2323; 22; ženski; tempo; eksperiment; 5; T5_tapping.wav; 8; 3706; 116; space
2323; 22; ženski; tempo; eksperiment; 5; T5_tapping.wav; 9; 4694; 96; return
2323; 22; ženski; tempo; eksperiment; 6; T6_tapping.wav; 1; 0; 71; space
2323; 22; ženski; tempo; eksperiment; 6; T6_tapping.wav; 2; 480; 92; space
2323; 22; ženski; tempo; eksperiment; 6; T6_tapping.wav; 3; 1032; 80; space
2323; 22; ženski; tempo; eksperiment; 6; T6_tapping.wav; 4; 1591; 96; space
2323; 22; ženski; tempo; eksperiment; 6; T6_tapping.wav; 5; 2142; 92; space
2323; 22; ženski; tempo; eksperiment; 6; T6_tapping.wav; 6; 2668; 88; space
2323; 22; ženski; tempo; eksperiment; 6; T6_tapping.wav; 7; 3196; 80; space
2323; 22; ženski; tempo; eksperiment; 6; T6_tapping.wav; 8; 3693; 88; space
2323; 22; ženski; tempo; eksperiment; 6; T6_tapping.wav; 9; 5119; 136; return
