sbj; age; sex; block; phase; trialnr; sound; press order; accumulated RT; press duration; key name
Lucijaend; 22; ženski; ritem; vaja; 1; R_exampleI_520260520260520130130520_tapping.wav; 1; 0; 96; space
Lucijaend; 22; ženski; ritem; vaja; 1; R_exampleI_520260520260520130130520_tapping.wav; 2; 555; 76; space
Lucijaend; 22; ženski; ritem; vaja; 1; R_exampleI_520260520260520130130520_tapping.wav; 3; 795; 94; space
Lucijaend; 22; ženski; ritem; vaja; 1; R_exampleI_520260520260520130130520_tapping.wav; 4; 1276; 79; space
Lucijaend; 22; ženski; ritem; vaja; 1; R_exampleI_520260520260520130130520_tapping.wav; 5; 1538; 89; space
Lucijaend; 22; ženski; ritem; vaja; 1; R_exampleI_520260520260520130130520_tapping.wav; 6; 2013; 63; space
Lucijaend; 22; ženski; ritem; vaja; 1; R_exampleI_520260520260520130130520_tapping.wav; 7; 2154; 72; space
Lucijaend; 22; ženski; ritem; vaja; 1; R_exampleI_520260520260520130130520_tapping.wav; 8; 2339; 63; space
Lucijaend; 22; ženski; ritem; vaja; 1; R_exampleI_520260520260520130130520_tapping.wav; 9; 2742; 67; space
Lucijaend; 22; ženski; ritem; vaja; 1; R_exampleI_520260520260520130130520_tapping.wav; 10; 6391; 68; return
Lucijaend; 22; ženski; ritem; eksperiment; 1; R_ES1_tapping.wav; 1; 0; 76; space
Lucijaend; 22; ženski; ritem; eksperiment; 1; R_ES1_tapping.wav; 2; 222; 80; space
Lucijaend; 22; ženski; ritem; eksperiment; 1; R_ES1_tapping.wav; 3; 468; 76; space
Lucijaend; 22; ženski; ritem; eksperiment; 1; R_ES1_tapping.wav; 4; 1012; 77; space
Lucijaend; 22; ženski; ritem; eksperiment; 1; R_ES1_tapping.wav; 5; 1239; 76; space
Lucijaend; 22; ženski; ritem; eksperiment; 1; R_ES1_tapping.wav; 6; 1464; 76; space
Lucijaend; 22; ženski; ritem; eksperiment; 1; R_ES1_tapping.wav; 7; 2002; 78; space
Lucijaend; 22; ženski; ritem; eksperiment; 1; R_ES1_tapping.wav; 8; 2511; 81; space
Lucijaend; 22; ženski; ritem; eksperiment; 1; R_ES1_tapping.wav; 9; 4857; 96; return
Lucijaend; 22; ženski; ritem; eksperiment; 2; R_M1_tapping.wav; 1; 0; 85; space
Lucijaend; 22; ženski; ritem; eksperiment; 2; R_M1_tapping.wav; 2; 420; 55; space
Lucijaend; 22; ženski; ritem; eksperiment; 2; R_M1_tapping.wav; 3; 573; 65; space
Lucijaend; 22; ženski; ritem; eksperiment; 2; R_M1_tapping.wav; 4; 934; 59; space
Lucijaend; 22; ženski; ritem; eksperiment; 2; R_M1_tapping.wav; 5; 1087; 65; space
Lucijaend; 22; ženski; ritem; eksperiment; 2; R_M1_tapping.wav; 6; 1308; 72; space
Lucijaend; 22; ženski; ritem; eksperiment; 2; R_M1_tapping.wav; 7; 1576; 63; space
Lucijaend; 22; ženski; ritem; eksperiment; 2; R_M1_tapping.wav; 8; 2160; 81; space
Lucijaend; 22; ženski; ritem; eksperiment; 2; R_M1_tapping.wav; 9; 2719; 82; space
Lucijaend; 22; ženski; ritem; eksperiment; 2; R_M1_tapping.wav; 10; 6391; 99; return
Lucijaend; 22; ženski; ritem; eksperiment; 3; R_C_tapping.wav; 1; 0; 102; space
Lucijaend; 22; ženski; ritem; eksperiment; 3; R_C_tapping.wav; 2; 547; 42; space
Lucijaend; 22; ženski; ritem; eksperiment; 3; R_C_tapping.wav; 3; 662; 80; space
Lucijaend; 22; ženski; ritem; eksperiment; 3; R_C_tapping.wav; 4; 923; 88; space
Lucijaend; 22; ženski; ritem; eksperiment; 3; R_C_tapping.wav; 5; 1155; 81; space
Lucijaend; 22; ženski; ritem; eksperiment; 3; R_C_tapping.wav; 6; 1395; 67; space
Lucijaend; 22; ženski; ritem; eksperiment; 3; R_C_tapping.wav; 7; 1643; 69; space
Lucijaend; 22; ženski; ritem; eksperiment; 3; R_C_tapping.wav; 8; 2130; 88; space
Lucijaend; 22; ženski; ritem; eksperiment; 3; R_C_tapping.wav; 9; 6645; 105; return
Lucijaend; 22; ženski; tempo; vaja; 1; TE_exampleI_129bpm_tapping.wav; 1; 0; 93; space
Lucijaend; 22; ženski; tempo; vaja; 1; TE_exampleI_129bpm_tapping.wav; 2; 428; 79; space
Lucijaend; 22; ženski; tempo; vaja; 1; TE_exampleI_129bpm_tapping.wav; 3; 881; 86; space
Lucijaend; 22; ženski; tempo; vaja; 1; TE_exampleI_129bpm_tapping.wav; 4; 1321; 79; space
Lucijaend; 22; ženski; tempo; vaja; 1; TE_exampleI_129bpm_tapping.wav; 5; 1764; 90; space
Lucijaend; 22; ženski; tempo; vaja; 1; TE_exampleI_129bpm_tapping.wav; 6; 2203; 82; space
Lucijaend; 22; ženski; tempo; vaja; 1; TE_exampleI_129bpm_tapping.wav; 7; 2686; 81; space
Lucijaend; 22; ženski; tempo; vaja; 1; TE_exampleI_129bpm_tapping.wav; 8; 3128; 94; space
Lucijaend; 22; ženski; tempo; vaja; 1; TE_exampleI_129bpm_tapping.wav; 9; 5649; NA; return
Lucijaend; 22; ženski; tempo; eksperiment; 1; TE_ES1_tapping.wav; 1; 0; 89; space
Lucijaend; 22; ženski; tempo; eksperiment; 1; TE_ES1_tapping.wav; 2; 417; 84; space
Lucijaend; 22; ženski; tempo; eksperiment; 1; TE_ES1_tapping.wav; 3; 871; 89; space
Lucijaend; 22; ženski; tempo; eksperiment; 1; TE_ES1_tapping.wav; 4; 1317; 96; space
Lucijaend; 22; ženski; tempo; eksperiment; 1; TE_ES1_tapping.wav; 5; 1775; 93; space
Lucijaend; 22; ženski; tempo; eksperiment; 1; TE_ES1_tapping.wav; 6; 2203; 89; space
Lucijaend; 22; ženski; tempo; eksperiment; 1; TE_ES1_tapping.wav; 7; 2678; 89; space
Lucijaend; 22; ženski; tempo; eksperiment; 1; TE_ES1_tapping.wav; 8; 3133; 90; space
Lucijaend; 22; ženski; tempo; eksperiment; 1; TE_ES1_tapping.wav; 9; 4935; 94; return
Lucijaend; 22; ženski; tempo; eksperiment; 2; TE_MS2_tapping.wav; 1; 0; 98; space
Lucijaend; 22; ženski; tempo; eksperiment; 2; TE_MS2_tapping.wav; 2; 641; 96; space
Lucijaend; 22; ženski; tempo; eksperiment; 2; TE_MS2_tapping.wav; 3; 1267; 87; space
Lucijaend; 22; ženski; tempo; eksperiment; 2; TE_MS2_tapping.wav; 4; 1885; 89; space
Lucijaend; 22; ženski; tempo; eksperiment; 2; TE_MS2_tapping.wav; 5; 2560; 99; space
Lucijaend; 22; ženski; tempo; eksperiment; 2; TE_MS2_tapping.wav; 6; 3178; 85; space
Lucijaend; 22; ženski; tempo; eksperiment; 2; TE_MS2_tapping.wav; 7; 3848; 88; space
Lucijaend; 22; ženski; tempo; eksperiment; 2; TE_MS2_tapping.wav; 8; 4466; 88; space
Lucijaend; 22; ženski; tempo; eksperiment; 2; TE_MS2_tapping.wav; 9; 6129; 84; return
Lucijaend; 22; ženski; tempo; eksperiment; 3; TE_CS2_tapping.wav; 1; 0; 121; space
Lucijaend; 22; ženski; tempo; eksperiment; 3; TE_CS2_tapping.wav; 2; 550; 113; space
Lucijaend; 22; ženski; tempo; eksperiment; 3; TE_CS2_tapping.wav; 3; 1104; 110; space
Lucijaend; 22; ženski; tempo; eksperiment; 3; TE_CS2_tapping.wav; 4; 1648; 130; space
Lucijaend; 22; ženski; tempo; eksperiment; 3; TE_CS2_tapping.wav; 5; 2161; 115; space
Lucijaend; 22; ženski; tempo; eksperiment; 3; TE_CS2_tapping.wav; 6; 2701; 117; space
Lucijaend; 22; ženski; tempo; eksperiment; 3; TE_CS2_tapping.wav; 7; 3228; 138; space
Lucijaend; 22; ženski; tempo; eksperiment; 3; TE_CS2_tapping.wav; 8; 3753; 122; space
Lucijaend; 22; ženski; tempo; eksperiment; 3; TE_CS2_tapping.wav; 9; 5718; 64; return
