sbj; age; sex; block; phase; trialnr; sound; press order; accumulated RT; press duration; key name
Mirkala2; 21; ženski; ritem; vaja; 1; R_exampleI_520260520260520130130520_tapping.wav; 1; 0; 106; space
Mirkala2; 21; ženski; ritem; vaja; 1; R_exampleI_520260520260520130130520_tapping.wav; 2; 474; 71; space
Mirkala2; 21; ženski; ritem; vaja; 1; R_exampleI_520260520260520130130520_tapping.wav; 3; 675; 60; space
Mirkala2; 21; ženski; ritem; vaja; 1; R_exampleI_520260520260520130130520_tapping.wav; 4; 1161; 94; space
Mirkala2; 21; ženski; ritem; vaja; 1; R_exampleI_520260520260520130130520_tapping.wav; 5; 1375; 88; space
Mirkala2; 21; ženski; ritem; vaja; 1; R_exampleI_520260520260520130130520_tapping.wav; 6; 1883; 84; space
Mirkala2; 21; ženski; ritem; vaja; 1; R_exampleI_520260520260520130130520_tapping.wav; 7; 2053; 66; space
Mirkala2; 21; ženski; ritem; vaja; 1; R_exampleI_520260520260520130130520_tapping.wav; 8; 2188; 93; space
Mirkala2; 21; ženski; ritem; vaja; 1; R_exampleI_520260520260520130130520_tapping.wav; 9; 2610; 79; space
Mirkala2; 21; ženski; ritem; vaja; 1; R_exampleI_520260520260520130130520_tapping.wav; 10; 4007; 68; return
Mirkala2; 21; ženski; ritem; eksperiment; 1; R_ES1_tapping.wav; 1; 0; 71; space
Mirkala2; 21; ženski; ritem; eksperiment; 1; R_ES1_tapping.wav; 2; 254; 89; space
Mirkala2; 21; ženski; ritem; eksperiment; 1; R_ES1_tapping.wav; 3; 1154; 88; space
Mirkala2; 21; ženski; ritem; eksperiment; 1; R_ES1_tapping.wav; 4; 1368; 80; space
Mirkala2; 21; ženski; ritem; eksperiment; 1; R_ES1_tapping.wav; 5; 1622; 93; space
Mirkala2; 21; ženski; ritem; eksperiment; 1; R_ES1_tapping.wav; 6; 2138; 114; space
Mirkala2; 21; ženski; ritem; eksperiment; 1; R_ES1_tapping.wav; 7; 2388; 72; space
Mirkala2; 21; ženski; ritem; eksperiment; 1; R_ES1_tapping.wav; 8; 2597; 84; space
Mirkala2; 21; ženski; ritem; eksperiment; 1; R_ES1_tapping.wav; 9; 3076; 105; space
Mirkala2; 21; ženski; ritem; eksperiment; 1; R_ES1_tapping.wav; 10; 3627; 105; space
Mirkala2; 21; ženski; ritem; eksperiment; 1; R_ES1_tapping.wav; 11; 4334; NA; return
Mirkala2; 21; ženski; ritem; eksperiment; 2; R_M1_tapping.wav; 1; 0; 105; space
Mirkala2; 21; ženski; ritem; eksperiment; 2; R_M1_tapping.wav; 2; 376; 107; space
Mirkala2; 21; ženski; ritem; eksperiment; 2; R_M1_tapping.wav; 3; 574; 71; space
Mirkala2; 21; ženski; ritem; eksperiment; 2; R_M1_tapping.wav; 4; 1327; 105; space
Mirkala2; 21; ženski; ritem; eksperiment; 2; R_M1_tapping.wav; 5; 1935; 93; space
Mirkala2; 21; ženski; ritem; eksperiment; 2; R_M1_tapping.wav; 6; 2154; 43; space
Mirkala2; 21; ženski; ritem; eksperiment; 2; R_M1_tapping.wav; 7; 2580; 54; space
Mirkala2; 21; ženski; ritem; eksperiment; 2; R_M1_tapping.wav; 8; 2768; 37; space
Mirkala2; 21; ženski; ritem; eksperiment; 2; R_M1_tapping.wav; 9; 3180; 55; space
Mirkala2; 21; ženski; ritem; eksperiment; 2; R_M1_tapping.wav; 10; 3266; 48; space
Mirkala2; 21; ženski; ritem; eksperiment; 2; R_M1_tapping.wav; 11; 3460; 80; space
Mirkala2; 21; ženski; ritem; eksperiment; 2; R_M1_tapping.wav; 12; 3774; 33; space
Mirkala2; 21; ženski; ritem; eksperiment; 2; R_M1_tapping.wav; 13; 4310; 90; space
Mirkala2; 21; ženski; ritem; eksperiment; 2; R_M1_tapping.wav; 14; 4505; 55; space
Mirkala2; 21; ženski; ritem; eksperiment; 2; R_M1_tapping.wav; 15; 4855; 67; space
Mirkala2; 21; ženski; ritem; eksperiment; 2; R_M1_tapping.wav; 16; 5506; 122; space
Mirkala2; 21; ženski; ritem; eksperiment; 2; R_M1_tapping.wav; 17; 5851; 86; space
Mirkala2; 21; ženski; ritem; eksperiment; 2; R_M1_tapping.wav; 18; 6888; NA; return
Mirkala2; 21; ženski; ritem; eksperiment; 3; R_C_tapping.wav; 1; 0; 94; space
Mirkala2; 21; ženski; ritem; eksperiment; 3; R_C_tapping.wav; 2; 412; 37; space
Mirkala2; 21; ženski; ritem; eksperiment; 3; R_C_tapping.wav; 3; 565; 107; space
Mirkala2; 21; ženski; ritem; eksperiment; 3; R_C_tapping.wav; 4; 973; 63; space
Mirkala2; 21; ženski; ritem; eksperiment; 3; R_C_tapping.wav; 5; 1118; 88; space
Mirkala2; 21; ženski; ritem; eksperiment; 3; R_C_tapping.wav; 6; 1268; 89; space
Mirkala2; 21; ženski; ritem; eksperiment; 3; R_C_tapping.wav; 7; 1460; 52; space
Mirkala2; 21; ženski; ritem; eksperiment; 3; R_C_tapping.wav; 8; 1747; 60; space
Mirkala2; 21; ženski; ritem; eksperiment; 3; R_C_tapping.wav; 9; 2223; 76; space
Mirkala2; 21; ženski; ritem; eksperiment; 3; R_C_tapping.wav; 10; 2380; 80; space
Mirkala2; 21; ženski; ritem; eksperiment; 3; R_C_tapping.wav; 11; 2793; 98; space
Mirkala2; 21; ženski; ritem; eksperiment; 3; R_C_tapping.wav; 12; 3304; 97; space
Mirkala2; 21; ženski; ritem; eksperiment; 3; R_C_tapping.wav; 13; 3909; 68; return
Mirkala2; 21; ženski; tempo; vaja; 1; TE_exampleI_129bpm_tapping.wav; 1; 0; 121; space
Mirkala2; 21; ženski; tempo; vaja; 1; TE_exampleI_129bpm_tapping.wav; 2; 402; 122; space
Mirkala2; 21; ženski; tempo; vaja; 1; TE_exampleI_129bpm_tapping.wav; 3; 830; 118; space
Mirkala2; 21; ženski; tempo; vaja; 1; TE_exampleI_129bpm_tapping.wav; 4; 1252; 132; space
Mirkala2; 21; ženski; tempo; vaja; 1; TE_exampleI_129bpm_tapping.wav; 5; 1704; 136; space
Mirkala2; 21; ženski; tempo; vaja; 1; TE_exampleI_129bpm_tapping.wav; 6; 2123; 156; space
Mirkala2; 21; ženski; tempo; vaja; 1; TE_exampleI_129bpm_tapping.wav; 7; 2593; 109; space
Mirkala2; 21; ženski; tempo; vaja; 1; TE_exampleI_129bpm_tapping.wav; 8; 3132; 135; space
Mirkala2; 21; ženski; tempo; vaja; 1; TE_exampleI_129bpm_tapping.wav; 9; 3649; 147; return
Mirkala2; 21; ženski; tempo; eksperiment; 1; TE_ES1_tapping.wav; 1; 0; 136; space
Mirkala2; 21; ženski; tempo; eksperiment; 1; TE_ES1_tapping.wav; 2; 459; 118; space
Mirkala2; 21; ženski; tempo; eksperiment; 1; TE_ES1_tapping.wav; 3; 893; 122; space
Mirkala2; 21; ženski; tempo; eksperiment; 1; TE_ES1_tapping.wav; 4; 1361; 119; space
Mirkala2; 21; ženski; tempo; eksperiment; 1; TE_ES1_tapping.wav; 5; 1834; 123; space
Mirkala2; 21; ženski; tempo; eksperiment; 1; TE_ES1_tapping.wav; 6; 2318; 122; space
Mirkala2; 21; ženski; tempo; eksperiment; 1; TE_ES1_tapping.wav; 7; 2800; 110; space
Mirkala2; 21; ženski; tempo; eksperiment; 1; TE_ES1_tapping.wav; 8; 3215; 95; space
Mirkala2; 21; ženski; tempo; eksperiment; 1; TE_ES1_tapping.wav; 9; 3691; 60; return
Mirkala2; 21; ženski; tempo; eksperiment; 2; TE_MS2_tapping.wav; 1; 0; 119; space
Mirkala2; 21; ženski; tempo; eksperiment; 2; TE_MS2_tapping.wav; 2; 682; 109; space
Mirkala2; 21; ženski; tempo; eksperiment; 2; TE_MS2_tapping.wav; 3; 1287; 155; space
Mirkala2; 21; ženski; tempo; eksperiment; 2; TE_MS2_tapping.wav; 4; 1905; 145; space
Mirkala2; 21; ženski; tempo; eksperiment; 2; TE_MS2_tapping.wav; 5; 2521; 138; space
Mirkala2; 21; ženski; tempo; eksperiment; 2; TE_MS2_tapping.wav; 6; 3142; 127; space
Mirkala2; 21; ženski; tempo; eksperiment; 2; TE_MS2_tapping.wav; 7; 3798; 148; space
Mirkala2; 21; ženski; tempo; eksperiment; 2; TE_MS2_tapping.wav; 8; 4417; 127; space
Mirkala2; 21; ženski; tempo; eksperiment; 2; TE_MS2_tapping.wav; 9; 5162; 92; return
Mirkala2; 21; ženski; tempo; eksperiment; 3; TE_CS2_tapping.wav; 1; 0; 136; space
Mirkala2; 21; ženski; tempo; eksperiment; 3; TE_CS2_tapping.wav; 2; 609; 139; space
Mirkala2; 21; ženski; tempo; eksperiment; 3; TE_CS2_tapping.wav; 3; 1160; 118; space
Mirkala2; 21; ženski; tempo; eksperiment; 3; TE_CS2_tapping.wav; 4; 1706; 123; space
Mirkala2; 21; ženski; tempo; eksperiment; 3; TE_CS2_tapping.wav; 5; 2280; 131; space
Mirkala2; 21; ženski; tempo; eksperiment; 3; TE_CS2_tapping.wav; 6; 2873; 183; space
Mirkala2; 21; ženski; tempo; eksperiment; 3; TE_CS2_tapping.wav; 7; 3460; 160; space
Mirkala2; 21; ženski; tempo; eksperiment; 3; TE_CS2_tapping.wav; 8; 4041; 119; space
Mirkala2; 21; ženski; tempo; eksperiment; 3; TE_CS2_tapping.wav; 9; 4462; 67; return
