sbj; age; sex; block; phase; trialnr; sound; press order; accumulated RT; press duration; key name
NinaP; 22; ženski; ritem; vaja; 1; R_exampleI_520260520260520130130520_tapping.wav; 1; 0; 84; space
NinaP; 22; ženski; ritem; vaja; 1; R_exampleI_520260520260520130130520_tapping.wav; 2; 464; 67; space
NinaP; 22; ženski; ritem; vaja; 1; R_exampleI_520260520260520130130520_tapping.wav; 3; 704; 58; space
NinaP; 22; ženski; ritem; vaja; 1; R_exampleI_520260520260520130130520_tapping.wav; 4; 1252; 35; space
NinaP; 22; ženski; ritem; vaja; 1; R_exampleI_520260520260520130130520_tapping.wav; 5; 1480; 57; space
NinaP; 22; ženski; ritem; vaja; 1; R_exampleI_520260520260520130130520_tapping.wav; 6; 1715; 54; space
NinaP; 22; ženski; ritem; vaja; 1; R_exampleI_520260520260520130130520_tapping.wav; 7; 1994; 50; space
NinaP; 22; ženski; ritem; vaja; 1; R_exampleI_520260520260520130130520_tapping.wav; 8; 2311; 52; space
NinaP; 22; ženski; ritem; vaja; 1; R_exampleI_520260520260520130130520_tapping.wav; 9; 33575; NA; return
NinaP; 22; ženski; ritem; eksperiment; 1; R_ES1_tapping.wav; 1; 0; 79; space
NinaP; 22; ženski; ritem; eksperiment; 1; R_ES1_tapping.wav; 2; 1064; 70; space
NinaP; 22; ženski; ritem; eksperiment; 1; R_ES1_tapping.wav; 3; 1277; 69; space
NinaP; 22; ženski; ritem; eksperiment; 1; R_ES1_tapping.wav; 4; 1501; 61; space
NinaP; 22; ženski; ritem; eksperiment; 1; R_ES1_tapping.wav; 5; 2024; 68; space
NinaP; 22; ženski; ritem; eksperiment; 1; R_ES1_tapping.wav; 6; 2246; 67; space
NinaP; 22; ženski; ritem; eksperiment; 1; R_ES1_tapping.wav; 7; 2473; 73; space
NinaP; 22; ženski; ritem; eksperiment; 1; R_ES1_tapping.wav; 8; 2970; 66; space
NinaP; 22; ženski; ritem; eksperiment; 1; R_ES1_tapping.wav; 9; 3191; 59; space
NinaP; 22; ženski; ritem; eksperiment; 1; R_ES1_tapping.wav; 10; 3465; 39; space
NinaP; 22; ženski; ritem; eksperiment; 1; R_ES1_tapping.wav; 11; 10936; 46; return
NinaP; 22; ženski; ritem; eksperiment; 2; R_M1_tapping.wav; 1; 0; 58; space
NinaP; 22; ženski; ritem; eksperiment; 2; R_M1_tapping.wav; 2; 378; 33; space
NinaP; 22; ženski; ritem; eksperiment; 2; R_M1_tapping.wav; 3; 540; 34; space
NinaP; 22; ženski; ritem; eksperiment; 2; R_M1_tapping.wav; 4; 2537; 72; space
NinaP; 22; ženski; ritem; eksperiment; 2; R_M1_tapping.wav; 5; 2748; 62; space
NinaP; 22; ženski; ritem; eksperiment; 2; R_M1_tapping.wav; 6; 3081; 36; space
NinaP; 22; ženski; ritem; eksperiment; 2; R_M1_tapping.wav; 7; 3377; 37; space
NinaP; 22; ženski; ritem; eksperiment; 2; R_M1_tapping.wav; 8; 6856; 64; return
NinaP; 22; ženski; ritem; eksperiment; 3; R_C_tapping.wav; 1; 0; 46; space
NinaP; 22; ženski; ritem; eksperiment; 3; R_C_tapping.wav; 2; 345; 43; space
NinaP; 22; ženski; ritem; eksperiment; 3; R_C_tapping.wav; 3; 508; 34; space
NinaP; 22; ženski; ritem; eksperiment; 3; R_C_tapping.wav; 4; 668; 39; space
NinaP; 22; ženski; ritem; eksperiment; 3; R_C_tapping.wav; 5; 980; 33; space
NinaP; 22; ženski; ritem; eksperiment; 3; R_C_tapping.wav; 6; 1402; 41; space
NinaP; 22; ženski; ritem; eksperiment; 3; R_C_tapping.wav; 7; 1580; 34; space
NinaP; 22; ženski; ritem; eksperiment; 3; R_C_tapping.wav; 8; 1992; 55; space
NinaP; 22; ženski; ritem; eksperiment; 3; R_C_tapping.wav; 9; 2437; 51; space
NinaP; 22; ženski; ritem; eksperiment; 3; R_C_tapping.wav; 10; 5123; 123; return
NinaP; 22; ženski; tempo; vaja; 1; TE_exampleI_129bpm_tapping.wav; 1; 0; 90; space
NinaP; 22; ženski; tempo; vaja; 1; TE_exampleI_129bpm_tapping.wav; 2; 407; 59; space
NinaP; 22; ženski; tempo; vaja; 1; TE_exampleI_129bpm_tapping.wav; 3; 827; 59; space
NinaP; 22; ženski; tempo; vaja; 1; TE_exampleI_129bpm_tapping.wav; 4; 1273; 45; space
NinaP; 22; ženski; tempo; vaja; 1; TE_exampleI_129bpm_tapping.wav; 5; 1737; 48; space
NinaP; 22; ženski; tempo; vaja; 1; TE_exampleI_129bpm_tapping.wav; 6; 2151; 59; space
NinaP; 22; ženski; tempo; vaja; 1; TE_exampleI_129bpm_tapping.wav; 7; 2595; 60; space
NinaP; 22; ženski; tempo; vaja; 1; TE_exampleI_129bpm_tapping.wav; 8; 3023; 61; space
NinaP; 22; ženski; tempo; vaja; 1; TE_exampleI_129bpm_tapping.wav; 9; 3468; 48; space
NinaP; 22; ženski; tempo; vaja; 1; TE_exampleI_129bpm_tapping.wav; 10; 6220; 39; return
NinaP; 22; ženski; tempo; eksperiment; 1; TE_ES1_tapping.wav; 1; 0; 68; space
NinaP; 22; ženski; tempo; eksperiment; 1; TE_ES1_tapping.wav; 2; 413; 46; space
NinaP; 22; ženski; tempo; eksperiment; 1; TE_ES1_tapping.wav; 3; 856; 44; space
NinaP; 22; ženski; tempo; eksperiment; 1; TE_ES1_tapping.wav; 4; 1291; 46; space
NinaP; 22; ženski; tempo; eksperiment; 1; TE_ES1_tapping.wav; 5; 1730; 52; space
NinaP; 22; ženski; tempo; eksperiment; 1; TE_ES1_tapping.wav; 6; 2215; 45; space
NinaP; 22; ženski; tempo; eksperiment; 1; TE_ES1_tapping.wav; 7; 2692; 46; space
NinaP; 22; ženski; tempo; eksperiment; 1; TE_ES1_tapping.wav; 8; 3137; 46; space
NinaP; 22; ženski; tempo; eksperiment; 1; TE_ES1_tapping.wav; 9; 4225; 56; return
NinaP; 22; ženski; tempo; eksperiment; 2; TE_MS2_tapping.wav; 1; 0; 60; space
NinaP; 22; ženski; tempo; eksperiment; 2; TE_MS2_tapping.wav; 2; 564; 51; space
NinaP; 22; ženski; tempo; eksperiment; 2; TE_MS2_tapping.wav; 3; 1182; 37; space
NinaP; 22; ženski; tempo; eksperiment; 2; TE_MS2_tapping.wav; 4; 1778; 47; space
NinaP; 22; ženski; tempo; eksperiment; 2; TE_MS2_tapping.wav; 5; 2375; 63; space
NinaP; 22; ženski; tempo; eksperiment; 2; TE_MS2_tapping.wav; 6; 3024; 50; space
NinaP; 22; ženski; tempo; eksperiment; 2; TE_MS2_tapping.wav; 7; 3635; 62; space
NinaP; 22; ženski; tempo; eksperiment; 2; TE_MS2_tapping.wav; 8; 4322; 54; space
NinaP; 22; ženski; tempo; eksperiment; 2; TE_MS2_tapping.wav; 9; 5395; 55; return
NinaP; 22; ženski; tempo; eksperiment; 3; TE_CS2_tapping.wav; 1; 0; 59; space
NinaP; 22; ženski; tempo; eksperiment; 3; TE_CS2_tapping.wav; 2; 462; 56; space
NinaP; 22; ženski; tempo; eksperiment; 3; TE_CS2_tapping.wav; 3; 1025; 58; space
NinaP; 22; ženski; tempo; eksperiment; 3; TE_CS2_tapping.wav; 4; 1581; 60; space
NinaP; 22; ženski; tempo; eksperiment; 3; TE_CS2_tapping.wav; 5; 2137; 29; space
NinaP; 22; ženski; tempo; eksperiment; 3; TE_CS2_tapping.wav; 6; 2657; 51; space
NinaP; 22; ženski; tempo; eksperiment; 3; TE_CS2_tapping.wav; 7; 3229; 52; space
NinaP; 22; ženski; tempo; eksperiment; 3; TE_CS2_tapping.wav; 8; 7435; 63; space
NinaP; 22; ženski; tempo; eksperiment; 3; TE_CS2_tapping.wav; 9; 9924; 39; return
